 input: iat,izt,iap,izp =  22  8  1  0

 input: emin,emax,vnmin,vnmax =      2.790     2.790     0.100     4.000
 defaults:  vn,adif,rr0,vnls =   1.0000  0.6500  1.2500  1.0000
 input:     vn,adif,rr0,vnls =   0.0000  0.0000  0.0000  0.0000

 resonance at vn =   1.719
 resonance at vn =   1.720
 resonance at ei =   2.476 with  G =    1.25550 MeV   
 resonance at ei =   2.499 with  G =    1.28689 MeV   

 n, e, phi, sig=sin(phi)**2/k, vnorm
  1   0.69750   0.034   0.2117E+01    1.71967
  1   0.71938   0.037   0.2424E+01    1.71967
  1   0.74125   0.040   0.2768E+01    1.71967
  1   0.76313   0.043   0.3149E+01    1.71967
  1   0.78501   0.046   0.3573E+01    1.71967
  1   0.80689   0.050   0.4042E+01    1.71967
  1   0.82876   0.054   0.4560E+01    1.71967
  1   0.85064   0.058   0.5134E+01    1.71967
  1   0.87252   0.062   0.5762E+01    1.71967
  1   0.89439   0.067   0.6458E+01    1.71967
  1   0.91627   0.071   0.7220E+01    1.71967
  1   0.93815   0.076   0.8053E+01    1.71967
  1   0.96003   0.082   0.8973E+01    1.71967
  1   0.98190   0.087   0.9970E+01    1.71967
  1   1.00378   0.093   0.1107E+02    1.71967
  1   1.02566   0.099   0.1226E+02    1.71967
  1   1.04753   0.105   0.1356E+02    1.71967
  1   1.06941   0.111   0.1498E+02    1.71967
  1   1.09129   0.118   0.1652E+02    1.71967
  1   1.11316   0.125   0.1819E+02    1.71967
  1   1.13504   0.133   0.2002E+02    1.71967
  1   1.15692   0.140   0.2199E+02    1.71967
  1   1.17880   0.148   0.2413E+02    1.71967
  1   1.20067   0.157   0.2646E+02    1.71967
  1   1.22255   0.166   0.2895E+02    1.71967
  1   1.24443   0.175   0.3166E+02    1.71967
  1   1.26630   0.185   0.3460E+02    1.71967
  1   1.28818   0.195   0.3774E+02    1.71967
  1   1.31006   0.205   0.4113E+02    1.71967
  1   1.33194   0.216   0.4482E+02    1.71967
  1   1.35381   0.227   0.4874E+02    1.71967
  1   1.37569   0.239   0.5295E+02    1.71967
  1   1.39757   0.251   0.5753E+02    1.71967
  1   1.41944   0.264   0.6238E+02    1.71967
  1   1.44132   0.277   0.6756E+02    1.71967
  1   1.46320   0.291   0.7317E+02    1.71967
  1   1.48508   0.305   0.7912E+02    1.71967
  1   1.50695   0.320   0.8541E+02    1.71967
  1   1.52883   0.336   0.9221E+02    1.71967
  1   1.55071   0.352   0.9942E+02    1.71967
  1   1.57258   0.368   0.1070E+03    1.71967
  1   1.59446   0.385   0.1150E+03    1.71967
  1   1.61634  -2.739   0.1236E+03    1.71967
  1   1.63821   0.421   0.1326E+03    1.71967
  1   1.66009   0.440   0.1420E+03    1.71967
  1   1.68197   0.460   0.1520E+03    1.71967
  1   1.70385   0.480   0.1624E+03    1.71967
  1   1.72572   0.500   0.1732E+03    1.71967
  1   1.74760   0.522   0.1846E+03    1.71967
  1   1.76948  -2.598   0.1964E+03    1.71967
  1   1.79135   0.566   0.2085E+03    1.71967
  1   1.81323   0.589   0.2209E+03    1.71967
  1   1.83511   0.612   0.2339E+03    1.71967
  1   1.85699   0.636   0.2471E+03    1.71967
  1   1.87886   0.661   0.2603E+03    1.71967
  1   1.90074   0.686   0.2740E+03    1.71967
  1   1.92262  -2.430   0.2878E+03    1.71967
  1   1.94449   0.737   0.3015E+03    1.71967
  1   1.96637   0.762   0.3151E+03    1.71967
  1   1.98825   0.789   0.3290E+03    1.71967
  1   2.01013  -2.326   0.3426E+03    1.71967
  1   2.03200   0.842   0.3557E+03    1.71967
  1   2.05388   0.869   0.3686E+03    1.71967
  1   2.07576   0.896   0.3814E+03    1.71967
  1   2.09763  -2.219   0.3936E+03    1.71967
  1   2.11951   0.949   0.4050E+03    1.71967
  1   2.14139   0.976   0.4161E+03    1.71967
  1   2.16326  -2.139   0.4268E+03    1.71967
  1   2.18514  -2.112   0.4365E+03    1.71967
  1   2.20702   1.055   0.4454E+03    1.71967
  1   2.22890   1.081   0.4537E+03    1.71967
  1   2.25077  -2.035   0.4615E+03    1.71967
  1   2.27265  -2.010   0.4683E+03    1.71967
  1   2.29453   1.156   0.4742E+03    1.71967
  1   2.31640   1.180   0.4796E+03    1.71967
  1   2.33828  -1.937   0.4843E+03    1.71967
  1   2.36016  -1.914   0.4881E+03    1.71967
  1   2.38204   1.250   0.4911E+03    1.71967
  1   2.40391   1.272   0.4936E+03    1.71967
  1   2.42579  -1.847   0.4956E+03    1.71967
  1   2.44767  -1.826   0.4969E+03    1.71967
  1   2.46954   1.335   0.4974E+03    1.71967
  1   2.49142   1.355   0.4976E+03    1.71967
  1   2.51330  -1.767   0.4973E+03    1.71967
  1   2.53518  -1.748   0.4965E+03    1.71967
  1   2.55705   1.411   0.4953E+03    1.71967
  1   2.57893   1.429   0.4937E+03    1.71967
  1   2.60081  -1.695   0.4918E+03    1.71967
  1   2.62268  -1.679   0.4896E+03    1.71967
  1   2.64456   1.478   0.4871E+03    1.71967
  1   2.66644   1.493   0.4843E+03    1.71967
  1   2.68831   1.509   0.4814E+03    1.71967
  1   2.71019  -1.618   0.4783E+03    1.71967
  1   2.73207  -1.605   0.4750E+03    1.71967
  1   2.75395   1.550   0.4715E+03    1.71967
  1   2.77582   1.562   0.4680E+03    1.71967
  1   2.79770  -1.566   0.4644E+03    1.71967
  1   2.81958  -1.554   0.4606E+03    1.71967
  1   2.84145   1.598   0.4569E+03    1.71967
  1   2.86333   1.609   0.4531E+03    1.71967
  1   2.88521  -1.522   0.4492E+03    1.71967
  1   2.90709  -1.511   0.4453E+03    1.71967
  1   2.92896  -1.501   0.4414E+03    1.71967
  1   2.95084   1.649   0.4376E+03    1.71967
  1   2.97272   1.658   0.4337E+03    1.71967
  1   2.99459  -1.474   0.4298E+03    1.71967
  1   3.01647  -1.465   0.4259E+03    1.71967
  1   3.03835   1.684   0.4222E+03    1.71967
  1   3.06023   1.691   0.4184E+03    1.71967
  1   3.08210  -1.442   0.4146E+03    1.71967
  1   3.10398  -1.435   0.4108E+03    1.71967
  1   3.12586  -1.428   0.4072E+03    1.71967
  1   3.14773   1.720   0.4037E+03    1.71967
  1   3.16961   1.726   0.4001E+03    1.71967
  1   3.19149  -1.409   0.3965E+03    1.71967
  1   3.21337  -1.403   0.3930E+03    1.71967
  1   3.23524  -1.397   0.3896E+03    1.71967
  1   3.25712   1.749   0.3863E+03    1.71967
  1   3.27900   1.754   0.3830E+03    1.71967
  1   3.30087  -1.382   0.3797E+03    1.71967
  1   3.32275  -1.377   0.3764E+03    1.71967
  1   3.34463  -1.373   0.3734E+03    1.71967
  1   3.36650   1.773   0.3703E+03    1.71967
  1   3.38838   1.777   0.3673E+03    1.71967
  1   3.41026  -1.360   0.3642E+03    1.71967
  1   3.43214  -1.355   0.3612E+03    1.71967
  1   3.45401  -1.352   0.3584E+03    1.71967
  1   3.47589   1.793   0.3557E+03    1.71967
  1   3.49777   1.796   0.3529E+03    1.71967
  1   3.51964  -1.342   0.3501E+03    1.71967
  1   3.54152  -1.338   0.3474E+03    1.71967
  1   3.56340  -1.336   0.3448E+03    1.71967
  1   3.58528   1.808   0.3423E+03    1.71967
  1   3.60715   1.811   0.3398E+03    1.71967
  1   3.62903  -1.327   0.3372E+03    1.71967
  1   3.65091  -1.325   0.3347E+03    1.71967
  1   3.67278  -1.323   0.3324E+03    1.71967
  1   3.69466   1.821   0.3301E+03    1.71967
  1   3.71654   1.823   0.3278E+03    1.71967
  1   3.73842  -1.316   0.3254E+03    1.71967
  1   3.76029  -1.314   0.3231E+03    1.71967
  1   3.78217  -1.312   0.3210E+03    1.71967
  1   3.80405   1.831   0.3190E+03    1.71967
  1   3.82592   1.832   0.3169E+03    1.71967
  1   3.84780  -1.307   0.3147E+03    1.71967
  1   3.86968  -1.305   0.3126E+03    1.71967
  1   3.89155  -1.304   0.3106E+03    1.71967
  1   3.91343   1.838   0.3088E+03    1.71967
  1   3.93531   1.839   0.3069E+03    1.71967
  1   3.95719  -1.301   0.3049E+03    1.71967
  1   3.97906  -1.299   0.3030E+03    1.71967
  1   4.00094  -1.298   0.3011E+03    1.71967
  1   4.02282   1.844   0.2994E+03    1.71967
  1   4.04469   1.844   0.2977E+03    1.71967
  1   4.06657   1.846   0.2960E+03    1.71967
  1   4.08845  -1.295   0.2941E+03    1.71967
  1   4.11033  -1.294   0.2924E+03    1.71967
  1   4.13220  -1.294   0.2908E+03    1.71967
  1   4.15408   1.848   0.2893E+03    1.71967
  1   4.17596   1.849   0.2877E+03    1.71967
  1   4.19783  -1.292   0.2860E+03    1.71967
  1   4.21971  -1.291   0.2844E+03    1.71967
  1   4.24159  -1.291   0.2829E+03    1.71967
  1   4.26347   1.850   0.2815E+03    1.71967
  1   4.28534   1.850   0.2801E+03    1.71967
  1   4.30722   1.851   0.2786E+03    1.71967
  2   4.32910  -1.290   0.2770E+03    1.71967
  2   4.35097  -1.289   0.2756E+03    1.71967
  2   4.37285  -1.290   0.2742E+03    1.71967
  2   4.39473   1.851   0.2730E+03    1.71967
  2   4.41660   1.851   0.2716E+03    1.71967
  2   4.43848  -1.290   0.2702E+03    1.71967
  2   4.46036  -1.289   0.2688E+03    1.71967
  2   4.48224  -1.290   0.2675E+03    1.71967
  2   4.50411  -1.290   0.2663E+03    1.71967
  2   4.52599   1.851   0.2652E+03    1.71967
  2   4.54787   1.851   0.2639E+03    1.71967
  2   4.56974  -1.291   0.2626E+03    1.71967
  2   4.59162  -1.290   0.2613E+03    1.71967
  2   4.61350  -1.291   0.2601E+03    1.71967
  2   4.63538   1.850   0.2590E+03    1.71967
  2   4.65725   1.849   0.2579E+03    1.71967
  2   4.67913   1.849   0.2567E+03    1.71967
  2   4.70101  -1.293   0.2555E+03    1.71967
  2   4.72288  -1.293   0.2543E+03    1.71967
  2   4.74476  -1.294   0.2533E+03    1.71967
  2   4.76664   1.847   0.2523E+03    1.71967
  2   4.78852   1.846   0.2513E+03    1.71967
  2   4.81039   1.846   0.2501E+03    1.71967
  2   4.83227  -1.296   0.2490E+03    1.71967
  2   4.85415  -1.296   0.2479E+03    1.71967
  2   4.87602  -1.297   0.2470E+03    1.71967
  2   4.89790   1.843   0.2461E+03    1.71967
  2   4.91978   1.842   0.2451E+03    1.71967
  2   4.94165  -1.300   0.2440E+03    1.71967
  2   4.96353  -1.300   0.2429E+03    1.71967
  2   4.98541  -1.300   0.2420E+03    1.71967
  2   5.00729  -1.301   0.2411E+03    1.71967
  2   5.02916   1.839   0.2402E+03    1.71967
  2   5.05104   1.838   0.2393E+03    1.71967
 resonance at ei =   2.491 with  G =    1.26887 MeV   
