 input: iat,izt,iap,izp =  24  8  1  0

 input: emin,emax,vnmin,vnmax =      3.490     3.490     0.100     5.000
 defaults:  vn,adif,rr0,vnls =   1.0000  0.6500  1.2500  1.0000
 input:     vn,adif,rr0,vnls =   0.0000  0.0000  0.0000  0.0000

 resonance at vn =   0.884
 resonance at vn =   0.886
 resonance at vn =   0.885
 resonance at ei =   3.294 with  G =    1.43963 MeV   
 resonance at ei =   3.311 with  G =    1.48412 MeV   

 n, e, phi, sig=sin(phi)**2/k, vnorm
  0   0.87250   0.023   0.8037E+00    0.88540
  0   0.89953   0.025   0.9182E+00    0.88540
  0   0.92656   0.027   0.1044E+01    0.88540
  0   0.95360   0.030   0.1185E+01    0.88540
  0   0.98063   0.032   0.1340E+01    0.88540
  0   1.00766   0.034   0.1512E+01    0.88540
  0   1.03469   0.037   0.1701E+01    0.88540
  0   1.06173   0.040   0.1909E+01    0.88540
  0   1.08876   0.042   0.2138E+01    0.88540
  0   1.11579   0.045   0.2388E+01    0.88540
  0   1.14282   0.048   0.2664E+01    0.88540
  0   1.16985   0.052   0.2963E+01    0.88540
  0   1.19689   0.055   0.3293E+01    0.88540
  0   1.22392   0.059   0.3650E+01    0.88540
  0   1.25095   0.062   0.4042E+01    0.88540
  0   1.27798   0.066   0.4468E+01    0.88540
  0   1.30502   0.070   0.4929E+01    0.88540
  0   1.33205   0.075   0.5436E+01    0.88540
  0   1.35908   0.079   0.5978E+01    0.88540
  0   1.38611   0.084   0.6574E+01    0.88540
  0   1.41314   0.089   0.7218E+01    0.88540
  0   1.44018   0.094   0.7911E+01    0.88540
  0   1.46721   0.099   0.8673E+01    0.88540
  0   1.49424   0.105   0.9484E+01    0.88540
  0   1.52127   0.110   0.1037E+02    0.88540
  0   1.54831   0.116   0.1133E+02    0.88540
  0   1.57534   0.123   0.1235E+02    0.88540
  0   1.60237   0.129   0.1348E+02    0.88540
  0   1.62940   0.136   0.1468E+02    0.88540
  0   1.65643   0.143   0.1596E+02    0.88540
  0   1.68347   0.151   0.1738E+02    0.88540
  0   1.71050   0.158   0.1887E+02    0.88540
  0   1.73753   0.166   0.2049E+02    0.88540
  0   1.76456  -2.967   0.2225E+02    0.88540
  0   1.79160   0.183   0.2412E+02    0.88540
  0   1.81863   0.192   0.2614E+02    0.88540
  0   1.84566  -2.940   0.2833E+02    0.88540
  0   1.87269   0.212   0.3064E+02    0.88540
  0   1.89972   0.222   0.3315E+02    0.88540
  0   1.92676   0.233   0.3586E+02    0.88540
  0   1.95379   0.244   0.3871E+02    0.88540
  0   1.98082   0.255   0.4180E+02    0.88540
  0   2.00785  -2.874   0.4515E+02    0.88540
  0   2.03489   0.280   0.4864E+02    0.88540
  0   2.06192   0.293   0.5244E+02    0.88540
  0   2.08895  -2.835   0.5653E+02    0.88540
  0   2.11598   0.320   0.6080E+02    0.88540
  0   2.14301   0.335   0.6540E+02    0.88540
  0   2.17005  -2.792   0.7038E+02    0.88540
  0   2.19708   0.366   0.7555E+02    0.88540
  0   2.22411   0.382   0.8107E+02    0.88540
  0   2.25114   0.399   0.8706E+02    0.88540
  0   2.27818   0.416   0.9327E+02    0.88540
  0   2.30521   0.434   0.9981E+02    0.88540
  0   2.33224   0.453   0.1069E+03    0.88540
  0   2.35927   0.473   0.1143E+03    0.88540
  0   2.38630   0.493   0.1219E+03    0.88540
  0   2.41334   0.514   0.1301E+03    0.88540
  0   2.44037  -2.606   0.1387E+03    0.88540
  0   2.46740   0.558   0.1474E+03    0.88540
  0   2.49443   0.580   0.1566E+03    0.88540
  0   2.52147  -2.537   0.1663E+03    0.88540
  0   2.54850   0.628   0.1762E+03    0.88540
  0   2.57553   0.653   0.1862E+03    0.88540
  0   2.60256   0.679   0.1969E+03    0.88540
  0   2.62960  -2.436   0.2076E+03    0.88540
  0   2.65663   0.732   0.2182E+03    0.88540
  0   2.68366   0.759   0.2293E+03    0.88540
  0   2.71069  -2.354   0.2405E+03    0.88540
  0   2.73772   0.815   0.2514E+03    0.88540
  0   2.76476   0.844   0.2623E+03    0.88540
  0   2.79179   0.873   0.2733E+03    0.88540
  0   2.81882  -2.239   0.2841E+03    0.88540
  0   2.84585   0.932   0.2942E+03    0.88540
  0   2.87289   0.962   0.3043E+03    0.88540
  0   2.89992  -2.149   0.3141E+03    0.88540
  0   2.92695   1.022   0.3232E+03    0.88540
  0   2.95398   1.052   0.3316E+03    0.88540
  0   2.98101   1.082   0.3398E+03    0.88540
  0   3.00805  -2.029   0.3474E+03    0.88540
  0   3.03508   1.142   0.3540E+03    0.88540
  0   3.06211   1.171   0.3599E+03    0.88540
  0   3.08914  -1.941   0.3655E+03    0.88540
  0   3.11618  -1.912   0.3702E+03    0.88540
  0   3.14321   1.257   0.3739E+03    0.88540
  0   3.17024   1.285   0.3772E+03    0.88540
  0   3.19727  -1.829   0.3799E+03    0.88540
  0   3.22430  -1.802   0.3817E+03    0.88540
  0   3.25134   1.365   0.3829E+03    0.88540
  0   3.27837   1.391   0.3836E+03    0.88540
  0   3.30540  -1.725   0.3837E+03    0.88540
  0   3.33243  -1.701   0.3832E+03    0.88540
  0   3.35947   1.463   0.3822E+03    0.88540
  0   3.38650   1.486   0.3809E+03    0.88540
  0   3.41353  -1.632   0.3791E+03    0.88540
  0   3.44056  -1.611   0.3770E+03    0.88540
  0   3.46759   1.551   0.3745E+03    0.88540
  0   3.49463   1.571   0.3718E+03    0.88540
  0   3.52166  -1.550   0.3687E+03    0.88540
  0   3.54869  -1.531   0.3655E+03    0.88540
  0   3.57572   1.628   0.3621E+03    0.88540
  0   3.60276   1.646   0.3586E+03    0.88540
  0   3.62979  -1.478   0.3548E+03    0.88540
  0   3.65682  -1.462   0.3511E+03    0.88540
  0   3.68385   1.695   0.3473E+03    0.88540
  0   3.71088   1.710   0.3433E+03    0.88540
  0   3.73792  -1.416   0.3393E+03    0.88540
  0   3.76495  -1.402   0.3353E+03    0.88540
  0   3.79198   1.753   0.3314E+03    0.88540
  0   3.81901   1.766   0.3273E+03    0.88540
  0   3.84605  -1.362   0.3232E+03    0.88540
  0   3.87308  -1.350   0.3193E+03    0.88540
  0   3.90011   1.803   0.3154E+03    0.88540
  0   3.92714   1.814   0.3116E+03    0.88540
  0   3.95417  -1.315   0.3076E+03    0.88540
  0   3.98121  -1.305   0.3037E+03    0.88540
  0   4.00824   1.847   0.3001E+03    0.88540
  0   4.03527   1.856   0.2965E+03    0.88540
  0   4.06230  -1.275   0.2927E+03    0.88540
  0   4.08934  -1.266   0.2890E+03    0.88540
  0   4.11637  -1.258   0.2856E+03    0.88540
  0   4.14340   1.892   0.2823E+03    0.88540
  1   4.17043   1.900   0.2789E+03    0.88540
  1   4.19746  -1.233   0.2754E+03    0.88540
  1   4.22450  -1.225   0.2722E+03    0.88540
  1   4.25153   1.923   0.2692E+03    0.88540
  1   4.27856   1.930   0.2661E+03    0.88540
  1   4.30559  -1.204   0.2629E+03    0.88540
  1   4.33263  -1.197   0.2599E+03    0.88540
  1   4.35966  -1.191   0.2571E+03    0.88540
  1   4.38669   1.956   0.2544E+03    0.88540
  1   4.41372  -1.180   0.2515E+03    0.88540
  1   4.44075  -1.173   0.2487E+03    0.88540
  1   4.46779  -1.168   0.2461E+03    0.88540
  1   4.49482   1.978   0.2436E+03    0.88540
  1   4.52185   1.983   0.2411E+03    0.88540
  1   4.54888  -1.153   0.2385E+03    0.88540
  1   4.57592  -1.147   0.2360E+03    0.88540
  1   4.60295  -1.143   0.2338E+03    0.88540
  1   4.62998   2.002   0.2316E+03    0.88540
  1   4.65701   2.006   0.2293E+03    0.88540
  1   4.68404  -1.130   0.2269E+03    0.88540
  1   4.71108  -1.126   0.2247E+03    0.88540
  1   4.73811  -1.123   0.2228E+03    0.88540
  1   4.76514   2.022   0.2208E+03    0.88540
  1   4.79217  -1.116   0.2187E+03    0.88540
  1   4.81921  -1.111   0.2166E+03    0.88540
  1   4.84624  -1.108   0.2147E+03    0.88540
  1   4.87327   2.036   0.2130E+03    0.88540
  1   4.90030   2.039   0.2112E+03    0.88540
  1   4.92733  -1.099   0.2093E+03    0.88540
  1   4.95437  -1.096   0.2074E+03    0.88540
  1   4.98140  -1.094   0.2058E+03    0.88540
  1   5.00843   2.050   0.2043E+03    0.88540
  1   5.03546   2.053   0.2026E+03    0.88540
  1   5.06250  -1.086   0.2008E+03    0.88540
  1   5.08953  -1.083   0.1992E+03    0.88540
  1   5.11656  -1.081   0.1977E+03    0.88540
  1   5.14359   2.062   0.1964E+03    0.88540
  1   5.17062   2.064   0.1949E+03    0.88540
  1   5.19766  -1.074   0.1932E+03    0.88540
  1   5.22469  -1.072   0.1918E+03    0.88540
  1   5.25172  -1.071   0.1905E+03    0.88540
  1   5.27875   2.072   0.1893E+03    0.88540
  1   5.30579   2.074   0.1879E+03    0.88540
  1   5.33282  -1.065   0.1864E+03    0.88540
  1   5.35985  -1.063   0.1851E+03    0.88540
  1   5.38688  -1.062   0.1840E+03    0.88540
  1   5.41391   2.080   0.1829E+03    0.88540
  1   5.44095   2.082   0.1816E+03    0.88540
  1   5.46798  -1.057   0.1803E+03    0.88540
  1   5.49501  -1.056   0.1790E+03    0.88540
  1   5.52204  -1.055   0.1780E+03    0.88540
  1   5.54908   2.087   0.1770E+03    0.88540
  1   5.57611   2.089   0.1759E+03    0.88540
  1   5.60314  -1.051   0.1747E+03    0.88540
  1   5.63017  -1.050   0.1735E+03    0.88540
  1   5.65720  -1.049   0.1726E+03    0.88540
  1   5.68424   2.093   0.1717E+03    0.88540
  1   5.71127   2.094   0.1707E+03    0.88540
  1   5.73830  -1.046   0.1696E+03    0.88540
  1   5.76533  -1.045   0.1685E+03    0.88540
  1   5.79237  -1.044   0.1676E+03    0.88540
  1   5.81940   2.097   0.1669E+03    0.88540
  1   5.84643   2.098   0.1660E+03    0.88540
  1   5.87346  -1.042   0.1649E+03    0.88540
  1   5.90050  -1.041   0.1639E+03    0.88540
  1   5.92753  -1.040   0.1631E+03    0.88540
  1   5.95456   2.101   0.1624E+03    0.88540
  1   5.98159   2.101   0.1616E+03    0.88540
  1   6.00862  -1.039   0.1607E+03    0.88540
  1   6.03566  -1.038   0.1597E+03    0.88540
  1   6.06269  -1.037   0.1589E+03    0.88540
  1   6.08972  -1.038   0.1582E+03    0.88540
  1   6.11675   2.104   0.1576E+03    0.88540
  1   6.14379   2.104   0.1568E+03    0.88540
  1   6.17082  -1.036   0.1558E+03    0.88540
  1   6.19785  -1.035   0.1550E+03    0.88540
  1   6.22488  -1.035   0.1544E+03    0.88540
  1   6.25191   2.106   0.1538E+03    0.88540
  1   6.27895   2.106   0.1531E+03    0.88540
 resonance at ei =   3.305 with  G =    1.45974 MeV   
